   wavelength(num) SRF
   1.490     2.4373E-04
   1.491    -2.2604E-05
   1.492    -6.9208E-05
   1.493    -7.7964E-04
   1.494    -6.8317E-05
   1.495     1.1481E-04
   1.496    -4.6999E-04
   1.497     5.4964E-04
   1.498     2.5358E-04
   1.499    -6.0007E-05
   1.500     3.2662E-04
   1.501    -8.4790E-05
   1.502     3.2176E-04
   1.503     4.0471E-04
   1.504    -5.1539E-04
   1.505     6.3005E-05
   1.506    -2.6885E-04
   1.507    -5.3276E-04
   1.508    -1.3701E-03
   1.509     1.0498E-03
   1.510    -1.7843E-04
   1.511    -4.8055E-04
   1.512     2.5209E-04
   1.513    -7.2523E-04
   1.514     2.4294E-04
   1.515     6.5051E-04
   1.516     1.4115E-03
   1.517    -1.2555E-03
   1.518    -1.1165E-03
   1.519    -9.9899E-04
   1.520    -4.4164E-05
   1.521    -1.9976E-04
   1.522     2.6514E-04
   1.523     9.2285E-04
   1.524    -4.6372E-04
   1.525    -1.8411E-04
   1.526     2.5693E-04
   1.527     5.3200E-05
   1.528    -3.3899E-04
   1.529    -3.2231E-04
   1.530    -7.3016E-04
   1.531    -3.9427E-04
   1.532     3.9237E-04
   1.533    -2.1647E-04
   1.534    -2.5796E-04
   1.535    -3.9057E-04
   1.536     6.7845E-05
   1.537    -1.6842E-04
   1.538    -3.8447E-05
   1.539    -1.4491E-04
   1.540    -2.5205E-04
   1.541    -7.8803E-05
   1.542    -4.9909E-04
   1.543     8.4768E-04
   1.544    -2.3240E-04
   1.545    -1.5828E-03
   1.546    -4.2156E-04
   1.547    -1.2965E-05
   1.548    -1.2591E-03
   1.549     1.0484E-04
   1.550     4.5950E-04
   1.551     5.0971E-04
   1.552     2.5695E-04
   1.553    -8.2996E-04
   1.554    -9.0095E-04
   1.555    -4.6079E-04
   1.556     4.7326E-04
   1.557     1.8289E-04
   1.558     4.3296E-04
   1.559    -6.8567E-04
   1.560    -5.7773E-05
   1.561     3.0230E-04
   1.562     6.0411E-04
   1.563    -3.9514E-04
   1.564    -5.0335E-06
   1.565     5.2504E-04
   1.566     8.3718E-04
   1.567     3.4234E-04
   1.568     1.3839E-03
   1.569     1.6536E-03
   1.570     2.3012E-03
   1.571     3.4033E-03
   1.572     4.6242E-03
   1.573     7.2385E-03
   1.574     9.4639E-03
   1.575     1.3567E-02
   1.576     1.9459E-02
   1.577     2.7512E-02
   1.578     3.6578E-02
   1.579     5.2677E-02
   1.580     7.3386E-02
   1.581     9.3609E-02
   1.582     1.2570E-01
   1.583     1.7316E-01
   1.584     2.2347E-01
   1.585     2.9052E-01
   1.586     3.5618E-01
   1.587     4.4414E-01
   1.588     5.3144E-01
   1.589     6.2332E-01
   1.590     6.9553E-01
   1.591     7.8787E-01
   1.592     8.5588E-01
   1.593     8.8924E-01
   1.594     9.2640E-01
   1.595     9.4272E-01
   1.596     9.2135E-01
   1.597     9.8539E-01
   1.598     9.6125E-01
   1.599     9.6392E-01
   1.600     9.5103E-01
   1.601     9.2583E-01
   1.602     9.2063E-01
   1.603     9.6318E-01
   1.604     1.0000E+00
   1.605     9.4541E-01
   1.606     9.4715E-01
   1.607     9.1251E-01
   1.608     9.4454E-01
   1.609     9.2512E-01
   1.610     9.5262E-01
   1.611     9.2287E-01
   1.612     9.5803E-01
   1.613     9.0318E-01
   1.614     9.4496E-01
   1.615     8.8500E-01
   1.616     9.1539E-01
   1.617     9.1773E-01
   1.618     8.7004E-01
   1.619     9.2697E-01
   1.620     8.7580E-01
   1.621     8.0638E-01
   1.622     8.1260E-01
   1.623     8.1246E-01
   1.624     8.0479E-01
   1.625     8.1646E-01
   1.626     8.1218E-01
   1.627     8.1875E-01
   1.628     8.2461E-01
   1.629     7.9180E-01
   1.630     7.9113E-01
   1.631     7.3096E-01
   1.632     6.7012E-01
   1.633     5.8548E-01
   1.634     5.0800E-01
   1.635     3.9659E-01
   1.636     3.1241E-01
   1.637     2.4013E-01
   1.638     1.7304E-01
   1.639     1.3048E-01
   1.640     9.0034E-02
   1.641     6.2458E-02
   1.642     4.6096E-02
   1.643     3.2768E-02
   1.644     2.4271E-02
   1.645     1.7752E-02
   1.646     1.2576E-02
   1.647     8.5135E-03
   1.648     6.7330E-03
   1.649     4.3174E-03
   1.650     3.1974E-03
   1.651     1.9867E-03
   1.652     1.4869E-03
   1.653     1.9413E-03
   1.654     8.0586E-04
   1.655     1.7052E-05
   1.656    -7.7357E-05
   1.657     2.8368E-04
   1.658    -3.8791E-04
   1.659     4.4410E-04
   1.660     3.8053E-04
   1.661     1.4949E-04
   1.662     4.0254E-04
   1.663    -4.7127E-04
   1.664     1.4883E-04
   1.665     3.0713E-04
   1.666     6.8972E-05
   1.667    -2.1537E-04
   1.668    -1.9702E-04
   1.669     3.0395E-04
   1.670     5.9870E-04
   1.671     6.8043E-04
   1.672     1.0607E-04
   1.673    -2.7909E-05
   1.674    -1.0946E-03
   1.675     1.9403E-04
   1.676     2.6866E-04
   1.677    -4.0022E-04
   1.678    -1.9190E-04
   1.679     4.3249E-04
   1.680     7.3851E-04
   1.681    -2.7595E-04
   1.682     7.6072E-05
   1.683     7.5412E-05
   1.684    -2.6819E-04
   1.685    -1.0360E-04
   1.686    -2.8719E-05
   1.687    -1.3566E-04
   1.688     7.3114E-06
   1.689    -3.4162E-04
   1.690    -8.3979E-04
   1.691     5.7519E-04
   1.692     2.1525E-04
   1.693    -4.6752E-04
   1.694    -1.5867E-03
   1.695    -4.0829E-04
   1.696    -2.8730E-04
   1.697    -1.7545E-04
   1.698     1.3792E-04
   1.699    -4.6143E-04
   1.700    -1.4469E-04
   1.701     6.6102E-05
   1.702     7.1965E-04
   1.703    -6.5688E-04
   1.704     2.8322E-04
   1.705     6.3412E-04
   1.706     5.1053E-04
   1.707     1.9481E-04
   1.708     1.6537E-04
   1.709     1.5471E-04
   1.710    -5.7936E-05
   1.711    -7.5810E-05
   1.712     7.1483E-04
   1.713    -1.5504E-04
   1.714     1.4941E-04
   1.715     8.3300E-04
   1.716     5.7810E-04
   1.717     3.7068E-05
   1.718     1.1283E-04
   1.719    -3.9059E-04
   1.720    -2.2420E-04
   1.721    -4.2307E-04
   1.722    -1.6457E-04
   1.723     3.4163E-04
   1.724    -7.0276E-04
   1.725     4.3032E-04
   1.726    -1.0234E-03
   1.727     3.2052E-04
   1.728    -3.2346E-04
   1.729     5.0819E-04
   1.730    -5.2272E-04
