 wavelength(num) SRF
   2.980     3.4501E-06
   2.987     8.3767E-06
   2.994     1.5767E-05
   3.001    -5.1658E-05
   3.008    -2.9619E-05
   3.015     2.6856E-06
   3.022     2.5951E-05
   3.029    -1.9897E-05
   3.036     3.3018E-05
   3.043     2.1270E-05
   3.050     1.9397E-05
   3.057    -3.4031E-05
   3.064    -1.8114E-05
   3.071     4.1908E-05
   3.078     8.1638E-06
   3.085    -7.6704E-05
   3.092    -1.0538E-04
   3.099    -2.8440E-05
   3.106     4.7786E-05
   3.113     2.7159E-05
   3.120     2.0938E-05
   3.127     1.0109E-05
   3.134    -1.9824E-05
   3.141     3.0857E-05
   3.148    -3.6742E-06
   3.155    -2.2168E-05
   3.162    -6.4889E-05
   3.169     6.7681E-06
   3.176     8.5868E-06
   3.183    -2.3139E-05
   3.190    -2.4762E-05
   3.197    -3.4833E-05
   3.204    -8.3428E-06
   3.211     2.5956E-05
   3.218     1.2721E-05
   3.225    -6.1647E-05
   3.232     7.7748E-05
   3.239    -9.1399E-06
   3.246    -1.8269E-05
   3.253     8.7131E-06
   3.260     2.7112E-05
   3.267    -7.0045E-05
   3.274     4.8549E-05
   3.281     2.4700E-05
   3.288     9.7179E-06
   3.295     4.6883E-05
   3.302     1.3811E-04
   3.309     5.2427E-05
   3.316     1.6350E-04
   3.323     3.5735E-05
   3.330     1.3522E-04
   3.337     8.3772E-05
   3.344     7.9643E-05
   3.351     1.4066E-04
   3.358     1.1526E-04
   3.365     1.5506E-04
   3.372     1.5009E-04
   3.379     1.7844E-04
   3.386     3.4738E-04
   3.393     3.7636E-04
   3.400     5.9970E-04
   3.407     8.0918E-04
   3.414     1.2406E-03
   3.421     1.7939E-03
   3.428     2.8513E-03
   3.435     3.9479E-03
   3.442     5.5813E-03
   3.449     7.5315E-03
   3.456     9.7840E-03
   3.463     1.2122E-02
   3.470     1.4971E-02
   3.477     1.8290E-02
   3.484     2.1854E-02
   3.491     2.6709E-02
   3.498     3.3221E-02
   3.505     4.2994E-02
   3.512     5.5757E-02
   3.519     7.5815E-02
   3.526     1.0415E-01
   3.533     1.4699E-01
   3.540     2.0600E-01
   3.547     2.8264E-01
   3.554     3.8244E-01
   3.561     4.9380E-01
   3.568     5.9713E-01
   3.575     6.9190E-01
   3.582     7.6436E-01
   3.589     8.2872E-01
   3.596     8.6492E-01
   3.603     8.9214E-01
   3.610     9.0558E-01
   3.617     9.1453E-01
   3.624     9.1096E-01
   3.631     9.0796E-01
   3.638     9.0382E-01
   3.645     9.0130E-01
   3.652     9.0422E-01
   3.659     9.0366E-01
   3.666     9.1531E-01
   3.673     9.2803E-01
   3.680     9.3934E-01
   3.687     9.5372E-01
   3.694     9.5759E-01
   3.701     9.7589E-01
   3.708     9.8014E-01
   3.715     9.9019E-01
   3.722     9.8800E-01
   3.729     9.8418E-01
   3.736     9.8123E-01
   3.743     9.7556E-01
   3.750     9.7869E-01
   3.757     9.7276E-01
   3.764     9.7472E-01
   3.771     9.7198E-01
   3.778     9.8662E-01
   3.785     9.9507E-01
   3.792     1.0000E+00
   3.799     9.9732E-01
   3.806     9.9988E-01
   3.813     9.9354E-01
   3.820     9.7937E-01
   3.827     9.7078E-01
   3.834     9.5287E-01
   3.841     9.4278E-01
   3.848     9.3521E-01
   3.855     9.2745E-01
   3.862     9.3919E-01
   3.869     9.3402E-01
   3.876     9.3879E-01
   3.883     9.6360E-01
   3.890     9.8024E-01
   3.897     9.8914E-01
   3.904     9.8183E-01
   3.911     9.5019E-01
   3.918     9.0288E-01
   3.925     8.0616E-01
   3.932     7.0042E-01
   3.939     5.6767E-01
   3.946     4.3992E-01
   3.953     3.2747E-01
   3.960     2.3467E-01
   3.967     1.6534E-01
   3.974     1.1289E-01
   3.981     7.6794E-02
   3.988     5.4095E-02
   3.995     3.7780E-02
   4.002     2.7385E-02
   4.009     1.9912E-02
   4.016     1.4608E-02
   4.023     1.0763E-02
   4.030     8.2325E-03
   4.037     6.1867E-03
   4.044     4.7484E-03
   4.051     3.7593E-03
   4.058     2.7803E-03
   4.065     2.2390E-03
   4.072     1.5665E-03
   4.079     1.2247E-03
   4.086     9.3591E-04
   4.093     6.4123E-04
   4.100     1.7287E-04
   4.107     7.0091E-04
   4.114     2.7715E-04
   4.121     4.3325E-05
   4.128     3.0629E-04
   4.135     1.4117E-04
   4.142    -1.2798E-06
   4.149     3.1982E-05
   4.156     8.5938E-05
   4.163     6.9751E-05
   4.170     9.5377E-05
   4.177     6.1372E-05
   4.184     1.7407E-05
   4.191     6.2281E-05
   4.198     5.8117E-05
   4.205     2.3845E-05
   4.212     4.8791E-04
   4.219    -1.8287E-04
   4.226     2.3553E-04
   4.233     1.0004E-03
   4.240     4.9754E-04
   4.247     5.0812E-04
   4.254     3.8839E-04
   4.261    -2.4124E-05
   4.268     6.3954E-04
   4.275     8.4231E-04
   4.282     5.1458E-05
   4.289    -7.4100E-05
   4.296     1.3217E-04
   4.303    -6.0247E-05
   4.310     4.5193E-04
   4.317     7.5920E-05
   4.324     3.4108E-04
   4.331     8.7045E-05
   4.338     1.0477E-04
   4.345     4.4552E-07
   4.352    -3.2384E-05
   4.359     6.2439E-05
   4.366     3.2560E-07
   4.373     4.6320E-05
   4.380    -1.0052E-05
   4.387     2.4575E-06
   4.394    -3.2284E-05
   4.401     4.0997E-05
   4.408    -5.3227E-05
   4.415    -6.4098E-05
   4.422    -1.6948E-04
   4.429     3.8139E-05
   4.436     9.8060E-06
   4.443     2.4418E-05
   4.450     6.8658E-05
   4.457     2.3386E-05
   4.464     7.4846E-06
   4.471    -1.6875E-04
   4.478    -1.3578E-05
   4.485    -2.3604E-05
   4.492    -4.8950E-05
   4.499     1.4251E-04
